Folder: BPI/jupyter/RHEO

Note: jupyter/RHEO/60-30-7_flow2.txt
Point No.	Shear Rate	Shear Stress	Viscosity	Temperature	Torque	Status
						
	[1/s]	[Pa]	[mPa·s]	[°C]	[mN·m]	
1	0.1	25.76	2.58E+05			
2	0.107	25.838	2.41E+05			
3	0.115	25.919	2.25E+05			
4	0.123	26.003	2.11E+05			
5	0.132	26.092	1.97E+05			
6	0.142	26.183	1.85E+05			
7	0.152	26.279	1.73E+05			
8	0.163	26.379	1.62E+05			
9	0.175	26.484	1.52E+05			
10	0.187	26.593	1.42E+05			
11	0.201	26.706	1.33E+05			
12	0.215	26.825	1.25E+05			
13	0.231	26.949	1.17E+05			
14	0.248	27.078	1.09E+05			
15	0.266	27.212	1.02E+05			
16	0.285	27.353	96040			
17	0.305	27.499	90047			
18	0.327	27.652	84445			
19	0.351	27.811	79207			
20	0.376	27.977	74311			
21	0.404	28.151	69732			
22	0.433	28.332	65451			
23	0.464	28.521	61446			
24	0.498	28.718	57701			
25	0.534	28.923	54197			
26	0.572	29.138	50919			
27	0.614	29.361	47852			
28	0.658	29.595	44981			
29	0.705	29.838	42295			
30	0.756	30.092	39780			
31	0.811	30.357	37425			
32	0.87	30.633	35221			
33	0.933	30.922	33156			
34	1	31.223	31223			
35	1.07	31.536	29411			
36	1.15	31.864	27713			
37	1.23	32.205	26123			
38	1.32	32.562	24632			
39	1.42	32.933	23234			
40	1.52	33.321	21923			
41	1.63	33.726	20694			
42	1.75	34.148	19541			
43	1.87	34.588	18459			
44	2.01	35.047	17443			
45	2.15	35.527	16490			
46	2.31	36.026	15595			
47	2.48	36.548	14754			
48	2.66	37.092	13965			
49	2.85	37.66	13223			
50	3.05	38.252	12526			
51	3.27	38.87	11870			
52	3.51	39.514	11254			
53	3.76	40.186	10674			
54	4.04	40.888	10128			
55	4.33	41.62	9614.7			
56	4.64	42.383	9131.2			
57	4.98	43.179	8675.8			
58	5.34	44.01	8246.7			
59	5.72	44.877	7842.4			
60	6.14	45.781	7461.2			
61	6.58	46.725	7101.7			
62	7.05	47.709	6762.6			
63	7.56	48.736	6442.6			
64	8.11	49.807	6140.4			
65	8.7	50.924	5855			
66	9.33	52.09	5585.4			
67	10	53.306	5330.6			
68	10.7	54.575	5089.7			
69	11.5	55.898	4861.8			
70	12.3	57.279	4646.1			
71	13.2	58.72	4441.9			
72	14.2	60.223	4248.6			
73	15.2	61.79	4065.4			
74	16.3	63.426	3891.8			
75	17.5	65.132	3727.1			
76	18.7	66.913	3570.9			
77	20.1	68.77	3422.7			
78	21.5	70.707	3281.9			
79	23.1	72.728	3148.2			
80	24.8	74.837	3021.2			
81	26.6	77.037	2900.4			
82	28.5	79.332	2785.5			
83	30.5	81.726	2676.1			
84	32.7	84.223	2572.1			
85	35.1	86.829	2472.9			
86	37.6	89.547	2378.5			
87	40.4	92.383	2288.4			
88	43.3	95.342	2202.5			
89	46.4	98.428	2120.6			
90	49.8	101.65	2042.3			
91	53.4	105.01	1967.6			
92	57.2	108.51	1896.3			
93	61.4	112.17	1828.1			
94	65.8	115.98	1762.8			
95	70.5	119.96	1700.4			
96	75.6	124.11	1640.7			
97	81.1	128.44	1583.5			
98	87	132.96	1528.7			
99	93.3	137.67	1476.2			
100	100	142.59	1425.9

Note: jupyter/RHEO/60-30-7_flow.txt
Point No.	Shear Rate	Shear Stress	Viscosity	Temperature	Torque	Status		reg	Point No.	Shear Rate	Shear Stress	Viscosity	Temperature	Torque	Status
															
	[1/s]	[Pa]	[mPa·s]	[°C]	[mN·m]					[1/s]	[Pa]	[mPa·s]	[°C]	[mN·m]	
1	0.5	7.7765	15552	24.93	0.71064	Dy_auto			1	0.1	25.76	2.58E+05			
2	0.557	11.357	20382	24.92	1.0378	Dy_auto			2	0.107	25.838	2.41E+05			
3	0.621	13.211	21272	24.91	1.2072	Dy_auto			3	0.115	25.919	2.25E+05			
4	0.692	14.753	21315	24.9	1.3481	Dy_auto			4	0.123	26.003	2.11E+05			
5	0.771	16.225	21033	24.89	1.4827	Dy_auto			5	0.132	26.092	1.97E+05			
6	0.86	17.661	20541	24.88	1.6139	Dy_auto			6	0.142	26.183	1.85E+05			
7	0.958	19.074	19905	24.87	1.743	Dy_auto			7	0.152	26.279	1.73E+05			
8	1.07	20.479	19176	24.86	1.8714	Dy_auto			8	0.163	26.379	1.62E+05			
9	1.19	21.895	18395	24.84	2.0009	Dy_auto			9	0.175	26.484	1.52E+05			
10	1.33	23.304	17567	24.83	2.1296	Dy_auto			10	0.187	26.593	1.42E+05			
11	1.48	24.74	16733	24.82	2.2608	Dy_auto			11	0.201	26.706	1.33E+05			
12	1.65	26.175	15885	24.81	2.392	Dy_auto			12	0.215	26.825	1.25E+05			
13	1.84	27.616	15037	24.8	2.5236	Dy_auto			13	0.231	26.949	1.17E+05			
14	2.05	29.088	14211	24.79	2.6582	Dy_auto			14	0.248	27.078	1.09E+05			
15	2.28	30.571	13401	24.78	2.7937	Dy_auto			15	0.266	27.212	1.02E+05			
16	2.54	32.063	12611	24.76	2.93	Dy_auto			16	0.285	27.353	96040			
17	2.83	33.576	11849	24.75	3.0683	Dy_auto			17	0.305	27.499	90047			
18	3.16	35.119	11120	24.74	3.2093	Dy_auto			18	0.327	27.652	84445			
19	3.52	36.665	10417	24.73	3.3506	Dy_auto			19	0.351	27.811	79207			
20	3.92	38.254	9751.5	24.72	3.50E+00	Dy_auto			20	0.376	27.977	74311			
21	4.37	39.891	9123.9	24.71	3.6454	Dy_auto			21	0.404	28.151	69732			
22	4.87	41.505	8517.5	24.7	3.7929	Dy_auto			22	0.433	28.332	65451			
23	5.43	43.139	7943.2	24.69	3.9422	Dy_auto			23	0.464	28.521	61446			
24	6.05	44.934	7423.7	24.68	4.1063	Dy_auto			24	0.498	28.718	57701			
25	6.75	46.617	6910.4	24.68	4.26	Dy_auto			25	0.534	28.923	54197			
26	7.52	48.429	6441.3	24.67	4.4256	Dy_auto			26	0.572	29.138	50919			
27	8.38	50.321	6005.1	24.66	4.5985	Dy_auto			27	0.614	29.361	47852			
28	9.34	52.176	5586.7	24.66	4.768	Dy_auto			28	0.658	29.595	44981			
29	10.4	54.085	5196.1	24.65	4.9425	Dy_auto			29	0.705	29.838	42295			
30	11.6	56.092	4835.2	24.65	5.1258	Dy_auto			30	0.756	30.092	39780			
31	12.9	58.222	4503.2	24.65	5.3206	Dy_auto			31	0.811	30.357	37425			
32	14.4	60.563	4202.9	24.65	5.5344	Dy_auto			32	0.87	30.633	35221			
33	16.1	62.962	3920.4	24.65	5.7537	Dy_auto			33	0.933	30.922	33156			
34	17.9	65.637	3667	24.65	5.9982	Dy_auto			34	1	31.223	31223			
35	19.9	68.597	3438.6	24.65	6.2686	Dy_auto			35	1.07	31.536	29411			
36	22.2	71.572	3219	24.66	6.5405	Dy_auto			36	1.15	31.864	27713			
37	24.8	74.91	3023	24.66	6.8455	Dy_auto			37	1.23	32.205	26123			
38	27.6	78.397	2838.6	24.66	7.1641	Dy_auto			38	1.32	32.562	24632			
39	30.8	82.048	2665.6	24.67	7.4979	Dy_auto			39	1.42	32.933	23234			
40	34.3	86.298	2515.6	24.68	7.8862	Dy_auto			40	1.52	33.3

Note: jupyter/RHEO/reg_fitting.txt
90-30-7 - yield stress = 3.8682, b = 0.62311, p = 0.67351
60-30-7 - yield stress = 23.965, b = 7.2572, p = 0.6067

File: 60-30-7_FR.txt
Point No.	Angular Frequency	Storage Modulus	Loss Modulus	Loss Factor	Shear Strain	Complex Viscosity	Torque	Status

	[rad/s]	[Pa]	[Pa]	[1]	[%]	[Pa·s]	[mN·m]
1	600	37.505	19.739	0.526	1	0.070637	0.038839	TruStrain™
2	336	41.496	45.975	1.108	1	0.18435	0.056866	TruStrain™
3	188	39.228	37.419	0.954	1.01	0.2882	0.049818	TruStrain™
4	105	32.93	25.492	0.774	1.01	0.39539	0.038268	TruStrain™
5	59	28.565	17.861	0.625	1	0.57129	0.03093	TruStrain™
6	33	25.247	13.085	0.518	1.01	0.86121	0.026118	TruStrain™
7	18.5	22.337	9.7138	0.435	1.01	1.3175	0.022373	TruStrain™
8	10.4	20.19	7.4528	0.369	1.01	2.079	0.019766	TruStrain™
9	5.8	18.377	5.9698	0.325	1.01	3.3337	0.017746	TruStrain™
10	3.25	16.848	4.9817	0.296	1.01	5.4135	0.016136	TruStrain™
11	1.82	15.451	4.3906	0.284	1.01	8.8399	0.014753	TruStrain™
12	1.02	14.149	4.0137	0.284	1.01	14.455	0.013508	TruStrain™
13	0.57	12.896	3.7868	0.294	1.01	23.593	0.012344	TruStrain™
14	0.319	11.694	3.6332	0.311	1.01	38.391	0.011247	WMa,TruStrain™
15	0.179	10.562	3.5362	0.335	1.01	62.364	0.01023	WMa,TruStrain™
16	0.1	9.4797	3.4811	0.367	1.01	100.99	0.009275	WMa,TruStrain™

File: 60-30-7_SR.txt
Point No.	Angular Frequency	Storage Modulus	Loss Modulus	Loss Factor	Shear Strain	Complex Viscosity	Torque	Status

	[rad/s]	[Pa]	[Pa]	[1]	[%]	[Pa·s]	[mN·m]
1	1	14.802	3.7398	0.253	0.101	15.267	0.0014023	WMa,TruStrain™
2	1	14.887	3.7226	0.25	0.163	15.346	0.0022886	WMa,TruStrain™
3	1	14.891	3.6984	0.248	0.265	15.344	0.0037157	WMa,TruStrain™
4	1	14.907	3.7047	0.249	0.43	15.361	0.0060402	WMa,TruStrain™
5	1	14.819	3.7017	0.25	0.699	15.275	0.0097529	WMa,TruStrain™
6	1	14.567	3.7472	0.257	1.13	15.041	0.015595	WMa,TruStrain™
7	1	13.997	3.8924	0.278	1.84	14.528	0.024458	WMa,TruStrain™
8	1	13.063	4.1428	0.317	2.99	13.705	0.037463	WMa,TruStrain™
9	1	12.058	4.4599	0.37	4.86	12.857	0.057068	WMa,TruStrain™
10	1	11.753	5.2212	0.444	7.89	12.861	0.092698	WMa,TruStrain™
11	1	13.957	7.951	0.57	12.8	16.063	0.18799	WMa,TruStrain™
12	1	21.95	17.64	0.804	20.8	28.16	0.53515	WMa,TruStrain™
13	1	25.051	30.937	1.235	33.8	39.807	1.2284	WMa,TruStrain™
14	1	18.971	36.096	1.903	54.8	40.777	2.0432	WMa,TruStrain™
15	1	10.957	31.391	2.865	89	33.248	2.7052	WMa,TruStrain™
16	1	5.7004	24.022	4.214	145	24.689	3.2618	WMa,TruStrain™
17	1	2.8611	17.663	6.173	235	17.893	3.8385	WMa,TruStrain™
18	1	1.3923	12.865	9.241	381	12.94	4.5076	WMa,TruStrain™
19	1	0.65916	9.4573	14.348	619	9.4803	5.3623	WMa,TruStrain™
20	1	0.30944	7.0465	22.772	1.01E+03	7.0533	6.4782	WMa,TruStrain™

File: 90-35-7_FR.txt
Point No.	Angular Frequency	Storage Modulus	Loss Modulus	Loss Factor	Shear Strain	Complex Viscosity	Torque	Status

	[rad/s]	[Pa]	[Pa]	[1]	[%]	[Pa·s]	[mN·m]
1	600	0.0028571	57.142	20000	1	0.095237	0.052372	ME-,MV-,taD,TruStrain™
2	380	52.006	26.018	0.5	1	0.1532	0.053399	TruStrain™
3	240	69.864	44.842	0.642	1	0.34571	0.076242	TruStrain™
4	152	70.981	37.389	0.527	1	0.5281	0.073676	TruStrain™
5	96.1	66.819	30.803	0.461	1	0.76559	0.067562	TruStrain™
6	60.8	62.04	24.906	0.401	1.01	1.0996	0.061401	TruStrain™
7	38.5	57.792	20.066	0.347	1.01	1.5905	0.056187	TruStrain™
8	24.3	54.25	16.166	0.298	1.01	2.3263	0.051991	TruStrain™
9	15.4	51.304	13.168	0.257	1.01	3.4408	0.048647	TruStrain™
10	9.74	48.987	10.993	0.224	1.01	5.1552	0.04611	TruStrain™
11	6.16	47.183	9.5021	0.201	1.01	7.8121	0.044206	TruStrain™
12	3.9	45.518	8.5191	0.187	1	11.881	0.042529	TruStrain™
13	2.47	43.961	8.002	0.182	1.01	18.122	0.041039	TruStrain™
14	1.56	42.37	7.7224	0.182	1.01	27.609	0.039555	TruStrain™
15	0.987	40.85	7.5812	0.186	1.01	42.101	0.038159	TruStrain™
16	0.624	39.488	7.7484	0.196	1.01	64.456	0.036958	TruStrain™
17	0.395	38.255	8.0592	0.211	1.01	98.985	0.035906	WMa,TruStrain™
18	0.25	36.938	8.2135	0.222	1.01	151.44	0.034754	WMa,TruStrain™
19	0.158	35.568	8.6308	0.243	1.01	231.54	0.033615	WMa,TruStrain™
20	0.1	34.471	8.9306	0.259	1.01	356.09	0.032705	WMa,TruStrain™

File: 90-35-7_SR.txt
Point No.	Angular Frequency	Storage Modulus	Loss Modulus	Loss Factor	Shear Strain	Complex Viscosity	Torque	Status

	[rad/s]	[Pa]	[Pa]	[1]	[%]	[Pa·s]	[mN·m]
1	1	47.297	5.0361	0.106	0.101	47.564	0.0043688	WMa,TruStrain™
2	1	47.149	5.2492	0.111	0.163	47.441	0.0070751	WMa,TruStrain™
3	1	46.751	5.4881	0.117	0.265	47.072	0.011399	WMa,TruStrain™
4	1	46.168	5.9592	0.129	0.43	46.552	0.018305	WMa,TruStrain™
5	1	44.933	6.8535	0.153	0.699	45.453	0.029022	WMa,TruStrain™
6	1	43.231	8.6076	0.199	1.13	44.079	0.045701	WMa,TruStrain™
7	1	40.312	10.976	0.272	1.84	41.78	0.070336	WMa,TruStrain™
8	1	35.188	13.888	0.395	2.99	37.83	0.10341	WMa,TruStrain™
9	1	27.633	16.137	0.584	4.86	32	0.14204	WMa,TruStrain™
10	1	19.338	16.03	0.829	7.89	25.119	0.18105	WMa,TruStrain™
11	1	11.682	13.811	1.182	12.8	18.089	0.21171	WMa,TruStrain™
12	1	6.1487	10.677	1.736	20.8	12.321	0.23415	WMa,TruStrain™
13	1	3.0948	7.8198	2.527	33.8	8.4099	0.25951	WMa,TruStrain™
14	1	1.6224	5.629	3.47	54.8	5.8582	0.29353	WMa,TruStrain™
15	1	0.87553	4.0384	4.613	89	4.1322	0.33621	WMa,TruStrain™
16	1	0.48398	2.9091	6.011	145	2.9491	0.38962	WMa,TruStrain™
17	1	0.26961	2.1025	7.798	235	2.1197	0.45473	WMa,TruStrain™
18	1	0.15162	1.5251	10.059	381	1.5326	0.53387	WMa,TruStrain™
19	1	0.084942	1.1079	13.043	619	1.1111	0.62847	WMa,TruStrain™
20	1	0.048637	0.81284	16.712	1.01E+03	0.81429	0.74788	WMa,TruStrain™

File: lignin_FR.txt
Point No.	Angular Frequency	Storage Modulus	Loss Modulus	Loss Factor	Shear Strain	Complex Viscosity	Torque	Status

	[rad/s]	[Pa]	[Pa]	[1]	[%]	[Pa·s]	[mN·m]
1	600	0.0048822	97.645	20000	1	0.16274	0.089494	ME-,MV-,taD,TruStrain™
2	380	0.0010781	21.561	20000	1.01	0.056803	0.019803	ME-,taD,TruStrain™
3	240	0.0013956	27.913	20000	1	0.11624	0.025635	ME-,taD,TruStrain™
4	152	0.0010841	21.682	20000	1.01	0.14272	0.019919	ME-,taD,TruStrain™
5	96.1	0.96418	17.685	18.342	1	0.18428	0.016265	TruStrain™
6	60.8	1.5111	15.433	10.213	1	0.25505	0.014241	TruStrain™
7	38.5	1.3427	13.781	10.264	1.01	0.35999	0.012729	TruStrain™
8	24.3	1.292	12.341	9.552	1.01	0.50992	0.011399	TruStrain™
9	15.4	2.1774	11.481	5.273	1.01	0.75908	0.010734	TruStrain™
10	9.74	2.4455	11.033	4.511	1	1.1604	0.010378	TruStrain™
11	6.16	2.1119	10.272	4.864	1.01	1.7021	0.0096315	TruStrain™
12	3.9	2.3637	9.7411	4.121	1.01	2.5718	0.0092067	TruStrain™
13	2.47	2.0892	9.3689	4.484	1.01	3.8929	0.008816	TruStrain™
14	1.56	1.0213	7.53	7.373	1.01	4.8714	0.0069795	TruStrain™
15	0.987	1.3993	7.359	5.259	1.01	7.5907	0.0068798	TruStrain™
16	0.624	1.0813	6.5493	6.057	1.01	10.632	0.0060965	TruStrain™
17	0.395	0.90989	4.0793	4.483	1.01	10.582	0.0038387	WMa,TruStrain™
18	0.25	0.76852	3.6667	4.771	1.01	14.994	0.0034408	WMa,TruStrain™
19	0.158	0.34899	2.5315	7.254	1.01	16.167	0.0023471	WMa,TruStrain™
20	0.1	0.70033	3.1983	4.567	1.01	32.741	0.0030071	WMa,TruStrain™

File: lignin_SR.txt
Point No.	Angular Frequency	Storage Modulus	Loss Modulus	Loss Factor	Shear Strain	Complex Viscosity	Torque	Status

	[rad/s]	[Pa]	[Pa]	[1]	[%]	[Pa·s]	[mN·m]
1	1	15.56	26.102	1.678	0.101	30.388	0.0027917	WMa,TruStrain™
2	1	7.458	18.582	2.492	0.163	20.023	0.0029868	WMa,TruStrain™
3	1	2.6593	10.197	3.835	0.265	10.538	0.0025527	WMa,TruStrain™
4	1	1.0474	6.0804	5.805	0.43	6.1699	0.0024265	WMa,TruStrain™
5	1	0.50292	3.5401	7.039	0.699	3.5756	0.0022831	WMa,TruStrain™
6	1	0.31335	2.5792	8.231	1.13	2.5981	0.0026938	WMa,TruStrain™
7	1	0.2145	1.8281	8.523	1.84	1.8406	0.0030987	WMa,TruStrain™
8	1	0.13602	1.3366	9.826	2.99	1.3435	0.0036726	WMa,TruStrain™
9	1	0.095441	0.94528	9.904	4.86	0.95009	0.0042172	WMa,TruStrain™
10	1	0.051118	0.68732	13.446	7.89	0.68922	0.0049676	WMa,TruStrain™
11	1	0.031382	0.50363	16.049	12.8	0.50461	0.0059057	WMa,TruStrain™
12	1	0.026784	0.3936	14.695	20.8	0.39451	0.0074972	WMa,TruStrain™
13	1	0.019003	0.34789	18.307	33.8	0.34841	0.010751	WMa,TruStrain™
14	1	0.019683	0.31411	15.958	54.8	0.31472	0.01577	WMa,TruStrain™

File: PLA_FR.txt
Point No.	Angular Frequency	Storage Modulus	Loss Modulus	Loss Factor	Shear Strain	Complex Viscosity	Torque	Status

	[rad/s]	[Pa]	[Pa]	[1]	[%]	[Pa·s]	[mN·m]
1	600	10.637	161.33	15.167	1	0.26946	0.14814	TruStrain™
2	380	32.319	199.24	6.165	1	0.53177	0.18536	TruStrain™
3	240	30.958	170.94	5.522	1.01	0.72343	0.15955	TruStrain™
4	152	21.371	123.22	5.766	1.01	0.82324	0.11486	TruStrain™
5	96.1	13.775	87.092	6.322	1.01	0.91747	0.081004	TruStrain™
6	60.8	8.3825	61.074	7.286	1	1.0139	0.05661	TruStrain™
7	38.5	5.0056	42.73	8.537	1.01	1.1185	0.039513	TruStrain™
8	24.3	2.9582	29.774	10.065	1.01	1.2296	0.027481	TruStrain™
9	15.4	2.2181	21.621	9.748	1.01	1.4119	0.019962	TruStrain™
10	9.74	1.4768	15.41	10.435	1.01	1.5896	0.014218	TruStrain™
11	6.16	1.0037	11.022	10.982	1.01	1.7964	0.010165	TruStrain™
12	3.9	0.71212	7.9367	11.145	1.01	2.0445	0.0073188	TruStrain™
13	2.47	0.52828	5.8127	11.003	1.01	2.3671	0.0053607	TruStrain™
14	1.56	0.43569	4.4126	10.128	1.01	2.8425	0.0040725	TruStrain™
15	0.987	0.40503	3.5358	8.73	1.01	3.6064	0.0032687	TruStrain™
16	0.624	0.43301	3.0262	6.989	1.01	4.8966	0.0028076	TruStrain™
17	0.395	0.50581	2.7289	5.395	1.01	7.027	0.002549	WMa,TruStrain™
18	0.25	0.66848	2.6591	3.978	1.01	10.973	0.0025182	WMa,TruStrain™
19	0.158	0.84063	2.6692	3.175	1.01	17.704	0.0025702	WMa,TruStrain™
20	0.1	0.99355	2.6963	2.714	1.01	28.735	0.0026391	WMa,TruStrain™

File: PLA_SR.txt
Point No.	Angular Frequency	Storage Modulus	Loss Modulus	Loss Factor	Shear Strain	Complex Viscosity	Torque	Status

	[rad/s]	[Pa]	[Pa]	[1]	[%]	[Pa·s]	[mN·m]
1	1	7.7012	16.156	2.098	0.101	17.898	0.001644	WMa,TruStrain™
2	1	8.4682	17.203	2.032	0.163	19.174	0.0028596	WMa,TruStrain™
3	1	9.2213	18.272	1.982	0.265	20.467	0.0049565	WMa,TruStrain™
4	1	9.953	19.29	1.938	0.43	21.706	0.0085353	WMa,TruStrain™
5	1	10.661	20.293	1.903	0.699	22.923	0.014637	WMa,TruStrain™
6	1	11.39	21.255	1.866	1.13	24.114	0.025001	WMa,TruStrain™
7	1	12.092	22.297	1.844	1.84	25.365	0.042702	WMa,TruStrain™
8	1	12.726	23.219	1.825	2.99	26.478	0.072381	WMa,TruStrain™
9	1	13.239	23.966	1.81	4.86	27.379	0.12153	WMa,TruStrain™
10	1	13.734	24.753	1.802	7.89	28.307	0.20403	WMa,TruStrain™
11	1	14.119	25.416	1.8	12.8	29.074	0.34027	WMa,TruStrain™
12	1	14.06	25.686	1.827	20.8	29.283	0.55649	WMa,TruStrain™
13	1	13.289	25.336	1.906	33.8	28.609	0.88284	WMa,TruStrain™
14	1	11.274	23.366	2.073	54.8	25.944	1.3	WMa,TruStrain™
15	1	7.5618	18.463	2.442	89	19.951	1.6233	WMa,TruStrain™
16	1	4.1461	12.881	3.107	145	13.532	1.7877	WMa,TruStrain™
17	1	2.25	8.8513	3.934	235	9.1328	1.9592	WMa,TruStrain™
18	1	1.2318	5.6602	4.595	381	5.7927	2.0179	WMa,TruStrain™
19	1	0.69531	2.8483	4.097	619	2.932	1.6584	WMa,TruStrain™
20	1	0.30228	1.4577	4.822	1.01E+03	1.4887	1.3673	WMa,TruStrain™